onset	duration	trial_type	expected_response	given_response	response_time
 0.000	 39.972	START	0	0	 0.000
 39.972	 9.992	P2	0	0	 0.000
 49.964	 1.714	JITTER3	0	0	 0.000
 51.678	 3.672	ISI3	0	0	 0.000
 55.350	 9.992	P1	0	0	 0.000
 65.342	 1.023	JITTER1	0	0	 0.000
 66.365	 2.984	ISI1	0	0	 0.000
 69.349	 9.993	T2	0	0	 0.000
 79.342	 1.980	JITTER4	0	0	 0.000
 81.322	 4.006	ISI4	0	0	 0.000
 85.328	 9.993	P1	0	0	 0.000
 95.321	 1.024	JITTER1	0	0	 0.000
 96.345	 3.337	ISI2	0	0	 0.000
 99.682	 9.994	T1	0	0	 0.000
 109.676	 1.290	JITTER2	0	0	 0.000
 110.966	 3.004	ISI1	0	0	 0.000
 113.970	 9.993	P2	0	0	 0.000
 123.963	 1.692	JITTER3	0	0	 0.000
 125.655	 3.338	ISI2	0	0	 0.000
 128.993	 9.992	T2	0	0	 0.000
 138.985	 1.981	JITTER4	0	0	 0.000
 140.966	 2.983	ISI1	0	0	 0.000
 143.949	 9.992	P1	0	0	 0.000
 153.941	 1.024	JITTER1	0	0	 0.000
 154.965	 3.673	ISI3	0	0	 0.000
 158.638	 9.992	T1	0	0	 0.000
 168.630	 1.712	JITTER3	0	0	 0.000
 170.342	 2.983	ISI1	0	0	 0.000
 173.325	 9.994	P2	0	0	 0.000
 183.319	 1.291	JITTER2	0	0	 0.000
 184.610	 4.026	ISI4	0	0	 0.000
 188.636	 9.994	T2	0	0	 0.000
 198.630	 1.692	JITTER3	0	0	 0.000
 200.322	 3.337	ISI2	0	0	 0.000
 203.659	 9.994	T1	0	0	 0.000
 213.653	 1.979	JITTER4	0	0	 0.000
 215.632	 2.983	ISI1	0	0	 0.000
 218.615	 9.994	P1	0	0	 0.000
 228.609	 1.023	JITTER1	0	0	 0.000
 229.632	 4.007	ISI4	0	0	 0.000
 233.639	 10.012	P2	0	0	 0.000
 243.651	 1.693	JITTER3	0	0	 0.000
 245.344	 3.672	ISI3	0	0	 0.000
 249.016	 9.993	T2	0	0	 0.000
 259.009	 1.291	JITTER2	0	0	 0.000
 260.300	 4.007	ISI4	0	0	 0.000
 264.307	 10.012	P1	0	0	 0.000
 274.319	 1.960	JITTER4	0	0	 0.000
 276.279	 3.339	ISI2	0	0	 0.000
 279.618	 9.992	T1	0	0	 0.000
 289.610	 1.291	JITTER2	0	0	 0.000
 290.901	 3.672	ISI3	0	0	 0.000
 294.573	 9.993	P2	0	0	 0.000
 304.566	 1.024	JITTER1	0	0	 0.000
 305.590	 4.006	ISI4	0	0	 0.000
 309.596	 10.014	T2	0	0	 0.000
 319.610	 1.290	JITTER2	0	0	 0.000
 320.900	 3.318	ISI2	0	0	 0.000
 324.218	 10.013	T1	0	0	 0.000
 334.231	 1.960	JITTER4	0	0	 0.000
 336.191	 3.672	ISI3	0	0	 0.000
 339.863	 2.992	END	0	0	 0.000
