onset	duration	trial_type	expected_response	given_response	response_time
 0.000	 39.973	START	0	0	 0.000
 39.973	 9.992	P1	0	0	 0.000
 49.965	 1.980	JITTER4	0	0	 0.000
 51.945	 4.006	ISI4	0	0	 0.000
 55.951	 9.994	T1	0	0	 0.000
 65.945	 1.712	JITTER3	0	0	 0.000
 67.657	 3.337	ISI2	0	0	 0.000
 70.994	 9.994	P2	0	0	 0.000
 80.988	 1.023	JITTER1	0	0	 0.000
 82.011	 2.983	ISI1	0	0	 0.000
 84.994	 9.994	T1	0	0	 0.000
 94.988	 1.290	JITTER2	0	0	 0.000
 96.278	 3.672	ISI3	0	0	 0.000
 99.950	 9.994	T2	0	0	 0.000
 109.944	 1.023	JITTER1	0	0	 0.000
 110.967	 4.007	ISI4	0	0	 0.000
 114.974	 10.012	P1	0	0	 0.000
 124.986	 1.960	JITTER4	0	0	 0.000
 126.946	 3.004	ISI1	0	0	 0.000
 129.950	 9.992	T2	0	0	 0.000
 139.942	 1.291	JITTER2	0	0	 0.000
 141.233	 3.338	ISI2	0	0	 0.000
 144.571	 9.993	P1	0	0	 0.000
 154.564	 1.692	JITTER3	0	0	 0.000
 156.256	 3.003	ISI1	0	0	 0.000
 159.259	 9.994	P2	0	0	 0.000
 169.253	 1.291	JITTER2	0	0	 0.000
 170.544	 3.672	ISI3	0	0	 0.000
 174.216	 9.993	T2	0	0	 0.000
 184.209	 1.980	JITTER4	0	0	 0.000
 186.189	 3.317	ISI2	0	0	 0.000
 189.506	 10.014	P2	0	0	 0.000
 199.520	 1.291	JITTER2	0	0	 0.000
 200.811	 4.006	ISI1	0	0	 0.000
 204.817	 9.994	T1	0	0	 0.000
 214.811	 1.692	JITTER3	0	0	 0.000
 216.503	 3.672	ISI3	0	0	 0.000
 220.175	 10.012	T2	0	0	 0.000
 230.187	 1.003	JITTER1	0	0	 0.000
 231.190	 4.028	ISI4	0	0	 0.000
 235.218	 9.992	P1	0	0	 0.000
 245.210	 1.692	JITTER1	0	0	 0.000
 246.902	 3.339	ISI2	0	0	 0.000
 250.241	 9.992	P2	0	0	 0.000
 260.233	 1.024	JITTER2	0	0	 0.000
 261.257	 3.672	ISI1	0	0	 0.000
 264.929	 9.993	T1	0	0	 0.000
 274.922	 1.980	JITTER3	0	0	 0.000
 276.902	 3.317	ISI3	0	0	 0.000
 280.219	 10.014	P1	0	0	 0.000
 290.233	 1.291	JITTER4	0	0	 0.000
 291.524	 2.983	ISI4	0	0	 0.000
 294.507	 9.993	T2	0	0	 0.000
 304.500	 1.024	JITTER2	0	0	 0.000
 305.524	 3.671	ISI3	0	0	 0.000
 309.195	 9.993	T1	0	0	 0.000
 319.188	 1.713	JITTER4	0	0	 0.000
 320.901	 4.006	ISI4	0	0	 0.000
 324.907	 9.993	P2	0	0	 0.000
 334.900	 1.980	JITTER3	0	0	 0.000
 336.880	 2.984	ISI2	0	0	 0.000
 339.864	 2.992	END	0	0	 0.000
