onset	duration	trial_type	expected_response	given_response	response_time
 0.000	 39.973	START	0	0	 0.000
 39.973	 9.993	P1	0	0	 0.000
 49.966	 1.979	JITTER4	0	0	 0.000
 51.945	 4.008	ISI4	0	0	 0.000
 55.953	 9.992	T1	0	0	 0.000
 65.945	 1.712	JITTER3	0	0	 0.000
 67.657	 3.338	ISI2	0	0	 0.000
 70.995	 9.993	P2	0	0	 0.000
 80.988	 1.024	JITTER1	0	0	 0.000
 82.012	 2.983	ISI1	0	0	 0.000
 84.995	 9.993	T1	0	0	 0.000
 94.988	 1.291	JITTER2	0	0	 0.000
 96.279	 3.672	ISI3	0	0	 0.000
 99.951	 9.993	T2	0	0	 0.000
 109.944	 1.024	JITTER1	0	0	 0.000
 110.968	 4.006	ISI4	0	0	 0.000
 114.974	 10.013	P1	0	0	 0.000
 124.987	 1.960	JITTER4	0	0	 0.000
 126.947	 3.003	ISI1	0	0	 0.000
 129.950	 9.993	T2	0	0	 0.000
 139.943	 1.291	JITTER2	0	0	 0.000
 141.234	 3.338	ISI2	0	0	 0.000
 144.572	 9.993	P1	0	0	 0.000
 154.565	 1.692	JITTER3	0	0	 0.000
 156.257	 3.003	ISI1	0	0	 0.000
 159.260	 9.993	P2	0	0	 0.000
 169.253	 1.291	JITTER2	0	0	 0.000
 170.544	 3.672	ISI3	0	0	 0.000
 174.216	 9.994	T2	0	0	 0.000
 184.210	 1.979	JITTER4	0	0	 0.000
 186.189	 3.318	ISI2	0	0	 0.000
 189.507	 10.013	P2	0	0	 0.000
 199.520	 1.291	JITTER2	0	0	 0.000
 200.811	 4.007	ISI1	0	0	 0.000
 204.818	 9.993	T1	0	0	 0.000
 214.811	 1.692	JITTER3	0	0	 0.000
 216.503	 3.672	ISI3	0	0	 0.000
 220.175	 10.013	T2	0	0	 0.000
 230.188	 1.004	JITTER1	0	0	 0.000
 231.192	 4.026	ISI4	0	0	 0.000
 235.218	 9.993	P1	0	0	 0.000
 245.211	 1.692	JITTER1	0	0	 0.000
 246.903	 3.339	ISI2	0	0	 0.000
 250.242	 9.992	P2	0	0	 0.000
 260.234	 1.023	JITTER2	0	0	 0.000
 261.257	 3.672	ISI1	0	0	 0.000
 264.929	 9.994	T1	0	0	 0.000
 274.923	 1.979	JITTER3	0	0	 0.000
 276.902	 3.318	ISI3	0	0	 0.000
 280.220	 10.013	P1	0	0	 0.000
 290.233	 1.291	JITTER4	0	0	 0.000
 291.524	 2.983	ISI4	0	0	 0.000
 294.507	 9.994	T2	0	0	 0.000
 304.501	 1.023	JITTER2	0	0	 0.000
 305.524	 3.672	ISI3	0	0	 0.000
 309.196	 9.993	T1	0	0	 0.000
 319.189	 1.713	JITTER4	0	0	 0.000
 320.902	 4.006	ISI4	0	0	 0.000
 324.908	 9.993	P2	0	0	 0.000
 334.901	 1.980	JITTER3	0	0	 0.000
 336.881	 2.983	ISI2	0	0	 0.000
 339.864	 2.992	END	0	0	 0.000
